#Frequency [Hz]	Relative permittivity
1000000	733.18
1258900	649.99
1584900	569.73
1995300	491.94
2511900	417.52
3162300	348.26
3981100	286.16
5011900	232.61
6309600	188.08
7943300	152.11
10000000	123.66
12589000	101.45
15849000	84.238
19953000	70.916
25119000	60.584
31623000	52.537
39811000	46.232
50119000	41.262
63096000	37.318
79433000	34.169
100000000	31.64
125890000	29.599
158490000	27.943
199530000	26.594
251190000	25.489
316230000	24.58
398110000	23.828
501190000	23.201
630960000	22.672
794330000	22.221
1000000000	21.825
1258900000	21.468
1584900000	21.131
1995300000	20.794
2511900000	20.436
3162300000	20.032
3981100000	19.552
5011900000	18.959
6309600000	18.217
7943300000	17.288
10000000000	16.149
